{
  "resourceType": "Bundle",
  "id": "Bundle-Scenario-2",
  "type": "searchset",
  "total": 24,
  "entry": [
    {
      "fullUrl": "Composition/bundle-scenario-2",
      "resource": {
        "resourceType": "Composition",
        "id": "Inline-Instance-for-Bundle-Scenario-2",
        "text": {
          "status": "generated",
          "div": "<div xmlns=\"http://www.w3.org/1999/xhtml\"><p><b>Generated Narrative</b></p><p><b>status</b>: preliminary</p><p><b>type</b>: <span title=\"Codes: {http://hl7.org/fhir/CodeSystem/doc-typecodes 11503-0}\">Medical records</span></p><p><b>date</b>: 2021-10-30</p><p><b>author</b>: <a href=\"http://fhir.org/packages/us.nlm.vsac/Practitioner/system/expansion\">System</a></p><p><b>title</b>: Continuity of Care Document</p><p><b>confidentiality</b>: 0</p></div>"
        },
        "status": "preliminary",
        "type": {
          "coding": [
            {
              "system": "http://hl7.org/fhir/CodeSystem/doc-typecodes",
              "code": "11503-0",
              "display": "Medical records"
            }
          ]
        },
        "date": "2021-10-30",
        "author": [
          {
            "reference": "Practitioner/system",
            "display": "System"
          }
        ],
        "title": "Continuity of Care Document",
        "confidentiality": "0",
        "section": [
          {
            "entry": [
              {
                "reference": "Consent/johnsmith-consent-plentyrx"
              }
            ]
          },
          {
            "entry": [
              {
                "reference": "Consent/johnsmith-consent-plentyrx-revoke"
              }
            ]
          },
          {
            "entry": [
              {
                "reference": "Consent/johnsmith-consent-org-pillbox"
              }
            ]
          },
          {
            "entry": [
              {
                "reference": "Organization/org-together-health"
              }
            ]
          },
          {
            "entry": [
              {
                "reference": "Organization/plentyrx"
              }
            ]
          },
          {
            "entry": [
              {
                "reference": "Organization/org-pillbox"
              }
            ]
          },
          {
            "entry": [
              {
                "reference": "Patient/patient-john-smith"
              }
            ]
          }
        ]
      }
    },
    {
      "fullUrl": "Consent/johnsmith-consent-plentyrx",
      "resource": {
        "resourceType": "Consent",
        "id": "johnsmith-consent-plentyrx",
        "meta": {
          "versionId": "1",
          "lastUpdated": "2021-07-01T00:00:00.0000+00:00",
          "source": "node-on-fhir.mitre.org#mehi-consent-engine",
          "profile": [
            "http://hl7.org/fhir/us/sdoh-clinicalcare/StructureDefinition/SDOHCC-Consent-Base-1"
          ]
        },
        "text": {
          "status": "generated",
          "div": "<div xmlns=\"http://www.w3.org/1999/xhtml\"><p><b>Generated Narrative</b></p><p><b>status</b>: active</p><p><b>scope</b>: <span title=\"Codes: {http://terminology.hl7.org/CodeSystem/consentscope patient-privacy}\">Privacy Consent</span></p><p><b>category</b>: <span title=\"Codes: {http://terminology.hl7.org/CodeSystem/v3-ActCode IDSCL}\">information disclosure</span></p><p><b>patient</b>: <a href=\"#Patient_patient-john-smith\">SMITH, JOHN. Generated Summary: Medical Record Number: 2002501 (USUAL); active; JOHN SMITH ; Phone: 555-555-5553; gender: male; birthDate: 1980-04-14</a></p><p><b>dateTime</b>: 2021-06-15</p><p><b>organization</b>: <a href=\"http://fhir.org/packages/us.nlm.vsac/Organization/org-plentyrx/expansion\">PlentyRx</a></p><p><b>policyRule</b>: <span title=\"Codes: {http://terminology.hl7.org/CodeSystem/consentpolicycodes hipaa-auth}\">HIPAA Authorization</span></p><blockquote><p><b>provision</b></p><p><b>type</b>: permit</p><p><b>period</b>: 2021-01-01 --&gt; (ongoing)</p><h3>Actors</h3><table class=\"grid\"><tr><td>-</td><td><b>Role</b></td><td><b>Reference</b></td></tr><tr><td>*</td><td><span title=\"Codes: {http://terminology.hl7.org/CodeSystem/contractsignertypecodes EVTWIT}\">Event Witness</span></td><td><a href=\"#Organization_plentyrx\">See above (Organization/plentyrx)</a></td></tr></table><p><b>action</b>: <span title=\"Codes: {http://terminology.hl7.org/CodeSystem/consentaction access}\">Access</span></p></blockquote></div>"
        },
        "status": "active",
        "scope": {
          "coding": [
            {
              "system": "http://terminology.hl7.org/CodeSystem/consentscope",
              "code": "patient-privacy",
              "display": "Privacy Consent"
            }
          ]
        },
        "category": [
          {
            "coding": [
              {
                "system": "http://terminology.hl7.org/CodeSystem/v3-ActCode",
                "code": "IDSCL",
                "display": "information disclosure"
              }
            ]
          }
        ],
        "patient": {
          "reference": "Patient/patient-john-smith",
          "display": "SMITH, JOHN"
        },
        "dateTime": "2021-06-15",
        "organization": [
          {
            "reference": "Organization/org-plentyrx",
            "display": "PlentyRx"
          }
        ],
        "policyRule": {
          "coding": [
            {
              "system": "http://terminology.hl7.org/CodeSystem/consentpolicycodes",
              "code": "hipaa-auth",
              "display": "HIPAA Authorization"
            }
          ]
        },
        "provision": {
          "type": "permit",
          "period": {
            "start": "2021-01-01"
          },
          "actor": [
            {
              "role": {
                "coding": [
                  {
                    "system": "http://terminology.hl7.org/CodeSystem/contractsignertypecodes",
                    "code": "EVTWIT",
                    "display": "Event Witness"
                  }
                ]
              },
              "reference": {
                "reference": "Organization/plentyrx"
              }
            }
          ],
          "action": [
            {
              "coding": [
                {
                  "system": "http://terminology.hl7.org/CodeSystem/consentaction",
                  "code": "access",
                  "display": "Access"
                }
              ],
              "text": "Access"
            }
          ]
        }
      }
    },
    {
      "fullUrl": "Consent/johnsmith-consent-plentyrx-revoke",
      "resource": {
        "resourceType": "Consent",
        "id": "johnsmith-consent-plentyrx-revoke",
        "meta": {
          "versionId": "2",
          "lastUpdated": "2021-09-01T00:00:00.0000+00:00",
          "source": "node-on-fhir.mitre.org#mehi-consent-engine",
          "profile": [
            "http://hl7.org/fhir/us/sdoh-clinicalcare/StructureDefinition/SDOHCC-Consent-Base-1"
          ]
        },
        "text": {
          "status": "generated",
          "div": "<div xmlns=\"http://www.w3.org/1999/xhtml\"><p><b>Generated Narrative</b></p><p><b>status</b>: inactive</p><p><b>scope</b>: <span title=\"Codes: {http://terminology.hl7.org/CodeSystem/consentscope patient-privacy}\">Privacy Consent</span></p><p><b>category</b>: <span title=\"Codes: {http://terminology.hl7.org/CodeSystem/v3-ActCode IDSCL}\">information disclosure</span></p><p><b>patient</b>: <a href=\"#Patient_patient-john-smith\">SMITH, JOHN. Generated Summary: Medical Record Number: 2002501 (USUAL); active; JOHN SMITH ; Phone: 555-555-5553; gender: male; birthDate: 1980-04-14</a></p><p><b>dateTime</b>: 2021-06-15</p><p><b>organization</b>: <a href=\"http://fhir.org/packages/us.nlm.vsac/Organization/org-plentyrx/expansion\">PlentyRx</a></p><p><b>policyRule</b>: <span title=\"Codes: {http://terminology.hl7.org/CodeSystem/consentpolicycodes hipaa-auth}\">HIPAA Authorization</span></p><blockquote><p><b>provision</b></p><p><b>type</b>: permit</p><p><b>period</b>: 2021-01-01 --&gt; (ongoing)</p><h3>Actors</h3><table class=\"grid\"><tr><td>-</td><td><b>Role</b></td><td><b>Reference</b></td></tr><tr><td>*</td><td><span title=\"Codes: {http://terminology.hl7.org/CodeSystem/contractsignertypecodes EVTWIT}\">Event Witness</span></td><td><a href=\"#Organization_plentyrx\">See above (Organization/plentyrx)</a></td></tr></table><p><b>action</b>: <span title=\"Codes: {http://terminology.hl7.org/CodeSystem/consentaction access}\">Access</span></p></blockquote></div>"
        },
        "status": "inactive",
        "scope": {
          "coding": [
            {
              "system": "http://terminology.hl7.org/CodeSystem/consentscope",
              "code": "patient-privacy",
              "display": "Privacy Consent"
            }
          ]
        },
        "category": [
          {
            "coding": [
              {
                "system": "http://terminology.hl7.org/CodeSystem/v3-ActCode",
                "code": "IDSCL",
                "display": "information disclosure"
              }
            ]
          }
        ],
        "patient": {
          "reference": "Patient/patient-john-smith",
          "display": "SMITH, JOHN"
        },
        "dateTime": "2021-06-15",
        "organization": [
          {
            "reference": "Organization/org-plentyrx",
            "display": "PlentyRx"
          }
        ],
        "policyRule": {
          "coding": [
            {
              "system": "http://terminology.hl7.org/CodeSystem/consentpolicycodes",
              "code": "hipaa-auth",
              "display": "HIPAA Authorization"
            }
          ]
        },
        "provision": {
          "type": "permit",
          "period": {
            "start": "2021-01-01"
          },
          "actor": [
            {
              "role": {
                "coding": [
                  {
                    "system": "http://terminology.hl7.org/CodeSystem/contractsignertypecodes",
                    "code": "EVTWIT",
                    "display": "Event Witness"
                  }
                ]
              },
              "reference": {
                "reference": "Organization/plentyrx"
              }
            }
          ],
          "action": [
            {
              "coding": [
                {
                  "system": "http://terminology.hl7.org/CodeSystem/consentaction",
                  "code": "access",
                  "display": "Access"
                }
              ],
              "text": "Access"
            }
          ]
        }
      }
    },
    {
      "fullUrl": "Consent/johnsmith-consent-org-pillbox",
      "resource": {
        "resourceType": "Consent",
        "id": "johnsmith-consent-org-pillbox",
        "meta": {
          "versionId": "1",
          "lastUpdated": "2021-09-05T00:00:00.0000+00:00",
          "source": "node-on-fhir.mitre.org#mehi-consent-engine",
          "profile": [
            "http://hl7.org/fhir/us/sdoh-clinicalcare/StructureDefinition/SDOHCC-Consent-Base-1"
          ]
        },
        "text": {
          "status": "generated",
          "div": "<div xmlns=\"http://www.w3.org/1999/xhtml\"><p><b>Generated Narrative</b></p><p><b>status</b>: active</p><p><b>scope</b>: <span title=\"Codes: {http://terminology.hl7.org/CodeSystem/consentscope patient-privacy}\">Privacy Consent</span></p><p><b>category</b>: <span title=\"Codes: {http://terminology.hl7.org/CodeSystem/v3-ActCode IDSCL}\">information disclosure</span></p><p><b>patient</b>: <a href=\"#Patient_patient-john-smith\">SMITH, JOHN. Generated Summary: Medical Record Number: 2002501 (USUAL); active; JOHN SMITH ; Phone: 555-555-5553; gender: male; birthDate: 1980-04-14</a></p><p><b>dateTime</b>: 2021-09-05</p><p><b>organization</b>: <a href=\"#Organization_org-pillbox\">PillBox. Generated Summary: active; name: PillBox</a></p><p><b>policyRule</b>: <span title=\"Codes: {http://terminology.hl7.org/CodeSystem/consentpolicycodes hipaa-auth}\">HIPAA Authorization</span></p><blockquote><p><b>provision</b></p><p><b>type</b>: permit</p><p><b>period</b>: 2021-01-01 --&gt; (ongoing)</p><h3>Actors</h3><table class=\"grid\"><tr><td>-</td><td><b>Role</b></td><td><b>Reference</b></td></tr><tr><td>*</td><td><span title=\"Codes: {http://terminology.hl7.org/CodeSystem/contractsignertypecodes EVTWIT}\">Event Witness</span></td><td><a href=\"#Organization_org-pillbox\">See above (Organization/org-pillbox)</a></td></tr></table><p><b>action</b>: <span title=\"Codes: {http://terminology.hl7.org/CodeSystem/consentaction access}\">Access</span></p></blockquote></div>"
        },
        "status": "active",
        "scope": {
          "coding": [
            {
              "system": "http://terminology.hl7.org/CodeSystem/consentscope",
              "code": "patient-privacy",
              "display": "Privacy Consent"
            }
          ]
        },
        "category": [
          {
            "coding": [
              {
                "system": "http://terminology.hl7.org/CodeSystem/v3-ActCode",
                "code": "IDSCL",
                "display": "information disclosure"
              }
            ]
          }
        ],
        "patient": {
          "reference": "Patient/patient-john-smith",
          "display": "SMITH, JOHN"
        },
        "dateTime": "2021-09-05",
        "organization": [
          {
            "reference": "Organization/org-pillbox",
            "display": "PillBox"
          }
        ],
        "policyRule": {
          "coding": [
            {
              "system": "http://terminology.hl7.org/CodeSystem/consentpolicycodes",
              "code": "hipaa-auth",
              "display": "HIPAA Authorization"
            }
          ]
        },
        "provision": {
          "type": "permit",
          "period": {
            "start": "2021-01-01"
          },
          "actor": [
            {
              "role": {
                "coding": [
                  {
                    "system": "http://terminology.hl7.org/CodeSystem/contractsignertypecodes",
                    "code": "EVTWIT",
                    "display": "Event Witness"
                  }
                ]
              },
              "reference": {
                "reference": "Organization/org-pillbox"
              }
            }
          ],
          "action": [
            {
              "coding": [
                {
                  "system": "http://terminology.hl7.org/CodeSystem/consentaction",
                  "code": "access",
                  "display": "Access"
                }
              ],
              "text": "Access"
            }
          ]
        }
      }
    },
    {
      "fullUrl": "Organization/org-together-health",
      "resource": {
        "resourceType": "Organization",
        "id": "org-together-health",
        "meta": {
          "versionId": "1",
          "lastUpdated": "2021-09-13T00:00:00.0000+00:00",
          "profile": [
            "http://hl7.org/fhir/us/core/StructureDefinition/us-core-organization"
          ]
        },
        "text": {
          "status": "generated",
          "div": "<div xmlns=\"http://www.w3.org/1999/xhtml\"><p><b>Generated Narrative</b></p><p><b>active</b>: true</p><p><b>name</b>: Together Health</p><p><b>address</b>: 132th St, Underland Park, KS 66223</p></div>"
        },
        "active": true,
        "name": "Together Health",
        "address": [
          {
            "text": "132th St, Underland Park, KS 66223",
            "line": [
              "132th Street,"
            ],
            "city": "Underland Park",
            "state": "KS",
            "postalCode": "66223"
          }
        ]
      }
    },
    {
      "fullUrl": "Organization/plentyrx",
      "resource": {
        "resourceType": "Organization",
        "id": "plentyrx",
        "meta": {
          "versionId": "1",
          "profile": [
            "http://hl7.org/fhir/us/core/StructureDefinition/us-core-organization"
          ]
        },
        "text": {
          "status": "generated",
          "div": "<div xmlns=\"http://www.w3.org/1999/xhtml\"><p><b>Generated Narrative</b></p><p><b>active</b>: true</p><p><b>name</b>: Plenty Rx</p></div>"
        },
        "active": true,
        "name": "Plenty Rx"
      }
    },
    {
      "fullUrl": "Organization/org-pillbox",
      "resource": {
        "resourceType": "Organization",
        "id": "org-pillbox",
        "meta": {
          "versionId": "1",
          "profile": [
            "http://hl7.org/fhir/us/core/StructureDefinition/us-core-organization"
          ]
        },
        "text": {
          "status": "generated",
          "div": "<div xmlns=\"http://www.w3.org/1999/xhtml\"><p><b>Generated Narrative</b></p><p><b>active</b>: true</p><p><b>name</b>: PillBox</p></div>"
        },
        "active": true,
        "name": "PillBox"
      }
    },
    {
      "fullUrl": "Patient/patient-john-smith",
      "resource": {
        "resourceType": "Patient",
        "id": "patient-john-smith",
        "meta": {
          "profile": [
            "http://mehi-ig.tranquildata.com/StructureDefinition/ConsentExchangePatient"
          ]
        },
        "text": {
          "status": "extensions",
          "div": "<div xmlns=\"http://www.w3.org/1999/xhtml\"><p><b>Generated Narrative</b></p><blockquote><p><b>US Core Race Extension</b></p><p><b>value</b>: <span title=\"{urn:oid:2.16.840.1.113883.6.238 2106-3}\">White</span></p></blockquote><blockquote><p><b>US Core Ethnicity Extension</b></p><p><b>value</b>: <span title=\"{urn:oid:2.16.840.1.113883.6.238 2135-2}\">Hispanic or Latino</span></p><p><b>value</b>: <span title=\"{urn:oid:2.16.840.1.113883.6.238 2184-0}\">Dominican</span></p><p><b>value</b>: <span title=\"{urn:oid:2.16.840.1.113883.6.238 2148-5}\">Mexican</span></p><p><b>value</b>: Hispanic or Latino</p></blockquote><p><b>US Core Birth Sex Extension</b>: M</p><p><b>identifier</b>: Medical Record Number: 2002501 (USUAL)</p><p><b>active</b>: true</p><p><b>name</b>: JOHN SMITH </p><p><b>telecom</b>: ph: 555-555-5553(HOME)</p><p><b>gender</b>: male</p><p><b>birthDate</b>: 1980-04-14</p><p><b>address</b>: </p><ul><li>49 Meadow St Birmingham AL 35242 US </li><li>183 Harbor View St Boston MA 02101 US </li></ul></div>"
        },
        "extension": [
          {
            "extension": [
              {
                "url": "ombCategory",
                "valueCoding": {
                  "system": "urn:oid:2.16.840.1.113883.6.238",
                  "code": "2106-3",
                  "display": "White"
                }
              }
            ],
            "url": "http://hl7.org/fhir/us/core/StructureDefinition/us-core-race"
          },
          {
            "extension": [
              {
                "url": "ombCategory",
                "valueCoding": {
                  "system": "urn:oid:2.16.840.1.113883.6.238",
                  "code": "2135-2",
                  "display": "Hispanic or Latino"
                }
              },
              {
                "url": "detailed",
                "valueCoding": {
                  "system": "urn:oid:2.16.840.1.113883.6.238",
                  "code": "2184-0",
                  "display": "Dominican"
                }
              },
              {
                "url": "detailed",
                "valueCoding": {
                  "system": "urn:oid:2.16.840.1.113883.6.238",
                  "code": "2148-5",
                  "display": "Mexican"
                }
              },
              {
                "url": "text",
                "valueString": "Hispanic or Latino"
              }
            ],
            "url": "http://hl7.org/fhir/us/core/StructureDefinition/us-core-ethnicity"
          },
          {
            "url": "http://hl7.org/fhir/us/core/StructureDefinition/us-core-birthsex",
            "valueCode": "M"
          }
        ],
        "identifier": [
          {
            "use": "usual",
            "type": {
              "coding": [
                {
                  "system": "http://terminology.hl7.org/CodeSystem/v2-0203",
                  "code": "MR",
                  "display": "Medical Record Number"
                }
              ],
              "text": "Medical Record Number"
            },
            "system": "http://hospital.smarthealthit.org",
            "value": "2002501"
          }
        ],
        "active": true,
        "name": [
          {
            "family": "SMITH",
            "given": [
              "JOHN"
            ]
          }
        ],
        "telecom": [
          {
            "system": "phone",
            "value": "555-555-5553",
            "use": "home"
          }
        ],
        "gender": "male",
        "birthDate": "1980-04-14",
        "address": [
          {
            "line": [
              "49 Meadow St"
            ],
            "city": "Birmingham",
            "state": "AL",
            "postalCode": "35242",
            "country": "US",
            "period": {
              "start": "2005-02-20",
              "end": "2020-06-01"
            }
          },
          {
            "line": [
              "183 Harbor View St"
            ],
            "city": "Boston",
            "state": "MA",
            "postalCode": "02101",
            "country": "US",
            "period": {
              "start": "2020-06-15"
            }
          }
        ]
      }
    }
  ]
}